OOIBase32 Version 2.0.6.5 Data File
++++++++++++++++++++++++++++++++++++
Date: 05-07-2014, 16:32:28
User: Valued Ocean Optics Customer
Spectrometer Serial Number: 
Spectrometer Channel: Master
Integration Time (msec): 50
Spectra Averaged: 10
Boxcar Smoothing: 0
Correct for Electrical Dark: Disabled
Time Normalized: Disabled
Dual-beam Reference: Disabled
Reference Channel: Master
Temperature: Not acquired
Spectrometer Type: S2000
ADC Type: USB2000
Number of Pixels in File: 2048
Graph Title: 
>>>>>Begin Spectral Data<<<<<
355.95	0.000
356.31	165.100
356.67	165.600
357.03	166.600
357.38	167.700
357.74	169.500
358.10	168.600
358.45	170.200
358.81	173.700
359.17	170.100
359.53	172.200
359.88	171.800
360.24	172.200
360.60	172.800
360.95	173.000
361.31	171.400
361.67	172.700
362.03	173.400
362.38	173.900
362.74	171.900
363.10	172.300
363.45	173.800
363.81	171.500
364.17	172.300
364.52	170.400
364.88	178.300
365.24	173.400
365.59	173.100
365.95	173.500
366.31	174.200
366.66	172.700
367.02	173.100
367.38	177.300
367.73	174.300
368.09	175.200
368.45	175.000
368.80	173.000
369.16	174.500
369.51	171.700
369.87	175.400
370.23	176.400
370.58	174.600
370.94	174.800
371.30	174.000
371.65	172.600
372.01	173.000
372.36	174.500
372.72	173.900
373.08	177.600
373.43	177.200
373.79	173.000
374.14	174.500
374.50	173.600
374.85	173.400
375.21	175.400
375.57	174.300
375.92	175.000
376.28	174.900
376.63	175.800
376.99	175.700
377.34	172.900
377.70	176.100
378.06	173.500
378.41	174.900
378.77	175.200
379.12	173.300
379.48	174.600
379.83	176.100
380.19	174.000
380.54	173.700
380.90	174.600
381.25	176.900
381.61	174.100
381.96	174.700
382.32	173.900
382.67	173.300
383.03	173.900
383.38	175.200
383.74	173.700
384.09	175.100
384.45	173.100
384.80	175.900
385.16	172.700
385.51	174.100
385.87	173.600
386.22	174.200
386.58	173.000
386.93	174.000
387.29	173.800
387.64	172.700
388.00	174.400
388.35	173.500
388.70	176.000
389.06	173.200
389.41	173.400
389.77	174.300
390.12	172.900
390.48	174.300
390.83	173.000
391.19	173.000
391.54	173.600
391.89	173.000
392.25	172.300
392.60	174.500
392.96	174.200
393.31	173.400
393.66	173.800
394.02	172.700
394.37	172.400
394.73	173.800
395.08	173.700
395.43	172.500
395.79	173.200
396.14	173.700
396.50	174.200
396.85	173.400
397.20	172.200
397.56	174.600
397.91	174.100
398.26	172.600
398.62	171.900
398.97	173.500
399.32	173.100
399.68	172.900
400.03	174.300
400.38	172.900
400.74	170.900
401.09	173.300
401.44	174.600
401.80	173.400
402.15	173.400
402.50	172.200
402.86	172.500
403.21	172.600
403.56	173.900
403.92	174.000
404.27	173.900
404.62	173.600
404.98	174.700
405.33	173.100
405.68	174.100
406.03	172.400
406.39	174.100
406.74	173.300
407.09	173.000
407.44	174.500
407.80	173.900
408.15	173.600
408.50	177.000
408.86	174.300
409.21	174.800
409.56	175.300
409.91	174.600
410.27	175.000
410.62	175.500
410.97	173.800
411.32	173.800
411.67	172.900
412.03	173.900
412.38	174.300
412.73	173.700
413.08	175.000
413.44	175.200
413.79	175.000
414.14	174.700
414.49	175.100
414.84	172.200
415.20	176.800
415.55	174.900
415.90	173.000
416.25	175.400
416.60	175.700
416.95	175.700
417.31	176.700
417.66	175.100
418.01	176.200
418.36	177.500
418.71	177.800
419.06	178.700
419.42	178.500
419.77	176.800
420.12	178.000
420.47	179.700
420.82	179.400
421.17	179.600
421.52	179.000
421.88	180.300
422.23	180.300
422.58	180.700
422.93	181.500
423.28	183.200
423.63	182.100
423.98	181.900
424.33	185.100
424.69	184.000
425.04	185.800
425.39	186.500
425.74	189.200
426.09	190.000
426.44	188.800
426.79	191.700
427.14	194.200
427.49	195.100
427.84	196.900
428.19	196.200
428.54	198.000
428.89	199.200
429.25	203.800
429.60	206.500
429.95	208.200
430.30	211.000
430.65	213.700
431.00	216.700
431.35	219.400
431.70	224.400
432.05	225.100
432.40	229.200
432.75	233.900
433.10	239.700
433.45	242.900
433.80	246.900
434.15	252.700
434.50	258.100
434.85	263.200
435.20	271.200
435.55	278.400
435.90	283.800
436.25	292.300
436.60	302.900
436.95	310.700
437.30	322.200
437.65	333.300
438.00	337.300
438.35	347.400
438.70	365.600
439.05	375.100
439.40	393.600
439.75	406.700
440.10	415.700
440.44	437.200
440.79	450.800
441.14	475.700
441.49	490.800
441.84	509.800
442.19	532.700
442.54	551.700
442.89	569.800
443.24	610.500
443.59	640.500
443.94	678.000
444.29	692.800
444.64	732.000
444.98	774.200
445.33	813.300
445.68	844.400
446.03	902.000
446.38	933.100
446.73	989.400
447.08	1006.400
447.43	1082.900
447.78	1147.900
448.12	1205.900
448.47	1259.800
448.82	1339.500
449.17	1393.700
449.52	1457.300
449.87	1508.200
450.21	1587.800
450.56	1594.300
450.91	1747.000
451.26	1775.500
451.61	1839.500
451.96	1858.700
452.30	1937.100
452.65	2049.800
453.00	2086.800
453.35	2122.400
453.70	2218.800
454.05	2169.400
454.39	2238.900
454.74	2382.200
455.09	2364.700
455.44	2407.000
455.79	2422.700
456.13	2407.600
456.48	2415.400
456.83	2405.300
457.18	2452.100
457.52	2436.900
457.87	2435.300
458.22	2355.200
458.57	2389.600
458.91	2349.500
459.26	2323.300
459.61	2255.500
459.96	2283.700
460.30	2212.400
460.65	2176.900
461.00	2119.000
461.35	2102.700
461.69	2032.900
462.04	1939.700
462.39	1871.900
462.73	1843.800
463.08	1799.700
463.43	1771.200
463.78	1685.500
464.12	1617.200
464.47	1594.900
464.82	1591.500
465.16	1528.500
465.51	1497.000
465.86	1467.800
466.20	1414.900
466.55	1367.300
466.90	1337.900
467.24	1326.500
467.59	1271.000
467.94	1217.200
468.28	1197.400
468.63	1207.500
468.98	1160.700
469.32	1104.000
469.67	1124.000
470.02	1072.100
470.36	1046.100
470.71	1039.200
471.06	1034.600
471.40	993.200
471.75	994.200
472.09	949.000
472.44	942.200
472.79	921.100
473.13	908.700
473.48	873.400
473.82	850.600
474.17	837.300
474.52	819.400
474.86	792.300
475.21	785.600
475.55	756.700
475.90	738.200
476.25	724.700
476.59	713.900
476.94	690.000
477.28	675.600
477.63	653.200
477.97	638.900
478.32	629.700
478.66	608.900
479.01	591.900
479.35	582.100
479.70	566.700
480.05	554.000
480.39	538.400
480.74	531.500
481.08	518.000
481.43	505.400
481.77	492.800
482.12	482.600
482.46	473.500
482.81	466.000
483.15	455.200
483.50	443.800
483.84	440.600
484.19	430.700
484.53	421.700
484.88	419.000
485.22	409.600
485.57	405.200
485.91	395.700
486.25	389.600
486.60	383.000
486.94	379.000
487.29	374.500
487.63	368.900
487.98	361.800
488.32	362.000
488.67	353.300
489.01	348.100
489.36	341.000
489.70	342.900
490.04	332.400
490.39	330.600
490.73	328.900
491.08	323.700
491.42	320.000
491.76	312.200
492.11	305.600
492.45	302.200
492.80	301.300
493.14	294.100
493.48	290.900
493.83	285.800
494.17	282.500
494.52	281.100
494.86	276.800
495.20	273.000
495.55	270.600
495.89	267.200
496.23	263.400
496.58	259.200
496.92	258.900
497.26	254.900
497.61	251.500
497.95	248.400
498.29	246.800
498.64	244.600
498.98	241.800
499.32	239.400
499.67	236.200
500.01	232.700
500.35	234.000
500.70	230.700
501.04	228.600
501.38	227.100
501.73	221.900
502.07	221.300
502.41	221.000
502.75	218.700
503.10	217.900
503.44	217.100
503.78	215.300
504.12	215.100
504.47	213.300
504.81	209.600
505.15	209.000
505.50	208.200
505.84	207.200
506.18	207.800
506.52	204.700
506.87	204.600
507.21	204.800
507.55	201.400
507.89	202.700
508.23	201.400
508.58	200.600
508.92	200.500
509.26	196.400
509.60	198.400
509.94	196.400
510.29	198.200
510.63	194.800
510.97	194.100
511.31	193.100
511.65	192.700
512.00	193.100
512.34	192.000
512.68	190.900
513.02	192.100
513.36	192.900
513.70	188.200
514.05	189.300
514.39	186.900
514.73	186.700
515.07	187.700
515.41	187.600
515.75	186.800
516.10	187.400
516.44	186.300
516.78	183.800
517.12	185.000
517.46	184.100
517.80	184.800
518.14	184.200
518.48	183.100
518.82	183.100
519.17	182.900
519.51	182.600
519.85	182.600
520.19	181.900
520.53	180.900
520.87	180.800
521.21	180.000
521.55	181.200
521.89	179.500
522.23	179.600
522.57	181.600
522.91	178.500
523.25	180.700
523.60	179.400
523.94	179.200
524.28	179.100
524.62	177.900
524.96	179.300
525.30	177.600
525.64	177.600
525.98	176.900
526.32	181.700
526.66	177.600
527.00	178.100
527.34	177.700
527.68	176.300
528.02	178.500
528.36	178.200
528.70	178.600
529.04	178.000
529.38	178.900
529.72	178.400
530.06	176.500
530.40	177.100
530.74	177.100
531.08	177.600
531.42	175.400
531.76	177.900
532.10	176.400
532.43	176.500
532.77	175.400
533.11	177.300
533.45	175.700
533.79	174.700
534.13	176.700
534.47	176.700
534.81	176.400
535.15	176.800
535.49	176.400
535.83	175.100
536.17	175.200
536.51	175.600
536.84	175.400
537.18	175.400
537.52	177.400
537.86	175.800
538.20	175.300
538.54	175.600
538.88	175.500
539.22	178.200
539.56	176.300
539.89	175.600
540.23	174.200
540.57	175.900
540.91	174.800
541.25	176.500
541.59	176.300
541.92	174.100
542.26	175.200
542.60	175.800
542.94	174.300
543.28	174.300
543.62	175.000
543.95	175.100
544.29	175.000
544.63	174.300
544.97	176.100
545.31	173.400
545.64	173.800
545.98	173.700
546.32	174.300
546.66	173.700
547.00	175.100
547.33	173.400
547.67	181.000
548.01	175.500
548.35	173.800
548.68	174.100
549.02	174.300
549.36	173.700
549.70	176.700
550.03	174.500
550.37	174.300
550.71	173.700
551.05	174.300
551.38	175.800
551.72	174.400
552.06	174.000
552.40	173.200
552.73	172.600
553.07	174.400
553.41	174.800
553.74	174.300
554.08	174.900
554.42	175.100
554.75	173.800
555.09	173.900
555.43	174.400
555.77	175.100
556.10	173.000
556.44	171.500
556.78	175.600
557.11	174.100
557.45	173.900
557.78	175.500
558.12	173.500
558.46	172.900
558.79	173.800
559.13	173.100
559.47	174.500
559.80	175.300
560.14	173.400
560.48	174.800
560.81	172.800
561.15	174.900
561.48	173.600
561.82	175.900
562.16	172.700
562.49	174.100
562.83	173.200
563.16	174.300
563.50	174.000
563.84	173.700
564.17	173.400
564.51	172.600
564.84	174.300
565.18	174.300
565.51	175.500
565.85	174.700
566.19	172.500
566.52	172.300
566.86	173.000
567.19	174.600
567.53	174.600
567.86	173.400
568.20	174.200
568.53	175.500
568.87	172.700
569.20	173.300
569.54	173.800
569.87	172.900
570.21	174.100
570.54	175.400
570.88	175.600
571.21	172.100
571.55	173.700
571.88	172.300
572.22	173.800
572.55	174.300
572.89	174.100
573.22	174.400
573.56	176.900
573.89	173.000
574.23	173.100
574.56	172.900
574.89	174.400
575.23	173.800
575.56	174.300
575.90	175.200
576.23	172.900
576.57	172.300
576.90	176.400
577.23	174.300
577.57	173.000
577.90	173.500
578.24	172.200
578.57	174.900
578.91	173.700
579.24	173.200
579.57	173.600
579.91	173.400
580.24	174.500
580.57	171.800
580.91	173.800
581.24	172.700
581.58	171.800
581.91	172.800
582.24	173.300
582.58	174.700
582.91	174.200
583.24	172.600
583.58	173.000
583.91	175.000
584.24	173.500
584.58	173.200
584.91	175.100
585.24	173.000
585.58	174.300
585.91	173.400
586.24	174.000
586.58	173.600
586.91	174.100
587.24	173.800
587.57	172.700
587.91	175.000
588.24	173.500
588.57	173.600
588.91	174.300
589.24	176.300
589.57	173.500
589.90	174.000
590.24	172.000
590.57	172.500
590.90	173.100
591.23	173.800
591.57	173.500
591.90	173.200
592.23	172.600
592.56	172.200
592.90	172.600
593.23	173.600
593.56	173.200
593.89	173.000
594.22	172.600
594.56	173.300
594.89	174.200
595.22	171.300
595.55	172.400
595.88	172.900
596.22	172.800
596.55	172.500
596.88	174.000
597.21	174.200
597.54	173.400
597.87	172.900
598.21	172.600
598.54	173.000
598.87	173.200
599.20	173.600
599.53	172.500
599.86	173.700
600.19	173.200
600.53	175.100
600.86	172.700
601.19	172.700
601.52	173.400
601.85	172.900
602.18	173.500
602.51	174.100
602.84	174.400
603.17	174.600
603.50	174.000
603.84	172.100
604.17	176.100
604.50	172.800
604.83	174.900
605.16	173.100
605.49	173.100
605.82	173.500
606.15	173.200
606.48	174.600
606.81	172.600
607.14	172.700
607.47	172.900
607.80	173.300
608.13	172.500
608.46	172.400
608.79	171.900
609.12	174.200
609.45	173.800
609.78	174.000
610.11	172.200
610.44	173.700
610.77	173.200
611.10	173.300
611.43	172.700
611.76	173.000
612.09	173.200
612.42	176.300
612.75	173.200
613.08	173.400
613.41	173.700
613.74	173.400
614.07	174.400
614.40	173.600
614.73	173.100
615.06	174.500
615.39	173.000
615.72	173.800
616.05	173.700
616.38	172.300
616.71	173.900
617.04	173.500
617.37	174.900
617.69	174.900
618.02	172.200
618.35	173.700
618.68	172.300
619.01	174.800
619.34	172.300
619.67	172.800
620.00	174.600
620.33	174.700
620.65	173.100
620.98	172.400
621.31	172.700
621.64	173.100
621.97	173.000
622.30	175.600
622.63	172.700
622.95	172.500
623.28	174.500
623.61	171.200
623.94	172.400
624.27	174.200
624.60	174.500
624.92	172.000
625.25	174.000
625.58	173.100
625.91	173.200
626.24	174.900
626.56	172.700
626.89	172.800
627.22	173.100
627.55	172.600
627.87	172.600
628.20	172.500
628.53	173.000
628.86	173.000
629.19	173.400
629.51	172.400
629.84	172.900
630.17	172.800
630.50	173.200
630.82	171.900
631.15	174.300
631.48	172.400
631.80	174.000
632.13	174.200
632.46	174.300
632.79	173.100
633.11	173.000
633.44	173.200
633.77	174.300
634.09	171.800
634.42	175.400
634.75	171.200
635.08	171.900
635.40	172.300
635.73	172.500
636.06	173.000
636.38	173.000
636.71	172.300
637.04	174.700
637.36	171.900
637.69	174.900
638.01	172.800
638.34	172.900
638.67	172.800
638.99	172.500
639.32	173.300
639.65	172.000
639.97	173.500
640.30	174.700
640.62	174.600
640.95	172.900
641.28	173.200
641.60	172.900
641.93	172.000
642.25	173.700
642.58	172.800
642.91	172.400
643.23	173.100
643.56	170.700
643.88	172.400
644.21	172.900
644.53	176.500
644.86	172.100
645.18	173.000
645.51	172.200
645.84	172.100
646.16	173.900
646.49	172.800
646.81	173.900
647.14	174.100
647.46	172.600
647.79	172.600
648.11	173.700
648.44	173.100
648.76	173.300
649.09	173.500
649.41	171.900
649.74	172.300
650.06	172.300
650.39	173.000
650.71	172.700
651.04	172.600
651.36	174.400
651.69	173.200
652.01	172.900
652.33	172.800
652.66	172.200
652.98	173.900
653.31	173.900
653.63	173.600
653.96	173.900
654.28	173.100
654.60	172.900
654.93	179.800
655.25	172.300
655.58	172.600
655.90	171.900
656.22	172.200
656.55	172.800
656.87	172.000
657.20	174.100
657.52	173.300
657.84	173.500
658.17	173.900
658.49	172.700
658.82	174.100
659.14	172.300
659.46	172.900
659.79	172.000
660.11	171.900
660.43	172.400
660.76	173.500
661.08	173.500
661.40	173.200
661.73	171.800
662.05	173.500
662.37	173.300
662.70	171.800
663.02	172.500
663.34	173.100
663.66	173.100
663.99	172.600
664.31	174.100
664.63	172.700
664.96	172.600
665.28	173.200
665.60	172.900
665.92	172.300
666.25	172.200
666.57	172.000
666.89	173.300
667.21	172.400
667.54	174.300
667.86	173.200
668.18	172.300
668.50	172.600
668.83	172.900
669.15	173.300
669.47	174.400
669.79	174.000
670.11	172.900
670.44	172.600
670.76	171.900
671.08	173.000
671.40	174.400
671.72	172.800
672.05	173.800
672.37	173.300
672.69	173.300
673.01	173.300
673.33	172.600
673.65	172.100
673.98	173.000
674.30	174.700
674.62	172.800
674.94	174.700
675.26	173.000
675.58	172.300
675.90	172.400
676.22	172.900
676.55	172.000
676.87	173.000
677.19	174.100
677.51	173.500
677.83	172.000
678.15	171.900
678.47	174.300
678.79	173.200
679.11	173.400
679.43	173.000
679.76	172.600
680.08	173.000
680.40	173.200
680.72	172.000
681.04	174.000
681.36	173.500
681.68	173.000
682.00	174.100
682.32	173.000
682.64	172.500
682.96	173.700
683.28	172.500
683.60	172.500
683.92	173.600
684.24	172.900
684.56	173.000
684.88	172.200
685.20	172.000
685.52	173.500
685.84	173.700
686.16	174.000
686.48	173.900
686.80	172.100
687.12	172.100
687.44	172.800
687.76	173.300
688.08	173.500
688.40	172.500
688.72	172.300
689.04	172.500
689.36	173.000
689.68	172.500
689.99	172.100
690.31	172.700
690.63	174.800
690.95	171.300
691.27	173.000
691.59	173.900
691.91	174.200
692.23	172.900
692.55	171.900
692.87	172.400
693.18	172.000
693.50	172.700
693.82	173.200
694.14	172.900
694.46	172.500
694.78	172.400
695.10	173.000
695.41	170.600
695.73	171.400
696.05	173.300
696.37	172.500
696.69	173.600
697.01	171.800
697.32	173.700
697.64	174.100
697.96	172.200
698.28	171.800
698.60	174.500
698.92	175.300
699.23	174.300
699.55	173.700
699.87	175.000
700.19	172.900
700.50	173.500
700.82	172.600
701.14	171.400
701.46	171.800
701.78	172.600
702.09	171.700
702.41	172.400
702.73	171.600
703.04	172.800
703.36	172.000
703.68	174.300
704.00	171.800
704.31	172.400
704.63	172.700
704.95	172.100
705.27	173.200
705.58	172.900
705.90	172.300
706.22	172.800
706.53	172.000
706.85	172.500
707.17	172.300
707.48	173.000
707.80	173.700
708.12	173.600
708.43	173.300
708.75	171.000
709.07	172.200
709.38	172.400
709.70	173.600
710.02	171.300
710.33	173.700
710.65	172.600
710.96	172.400
711.28	171.600
711.60	171.100
711.91	172.900
712.23	174.100
712.54	172.000
712.86	172.900
713.18	172.600
713.49	172.600
713.81	172.500
714.12	173.800
714.44	171.900
714.76	172.800
715.07	172.800
715.39	174.100
715.70	173.100
716.02	172.800
716.33	174.600
716.65	172.100
716.96	174.500
717.28	172.300
717.59	172.500
717.91	171.500
718.22	172.400
718.54	172.900
718.86	172.000
719.17	173.500
719.49	172.900
719.80	172.500
720.11	171.700
720.43	172.300
720.74	174.300
721.06	172.200
721.37	173.200
721.69	172.100
722.00	171.800
722.32	171.800
722.63	172.700
722.95	171.800
723.26	172.300
723.58	172.800
723.89	172.000
724.20	173.400
724.52	172.600
724.83	173.600
725.15	174.200
725.46	175.000
725.77	171.400
726.09	171.900
726.40	173.200
726.72	173.500
727.03	172.800
727.34	173.200
727.66	171.900
727.97	174.800
728.29	172.400
728.60	172.800
728.91	172.000
729.23	173.000
729.54	174.100
729.85	173.600
730.17	172.000
730.48	172.700
730.79	172.600
731.11	173.500
731.42	173.400
731.73	172.600
732.05	173.100
732.36	171.900
732.67	173.900
732.98	174.400
733.30	172.600
733.61	174.400
733.92	172.200
734.24	172.500
734.55	173.700
734.86	173.400
735.17	174.900
735.49	173.100
735.80	173.400
736.11	173.100
736.42	172.300
736.74	173.300
737.05	172.900
737.36	172.400
737.67	172.700
737.98	171.200
738.30	172.900
738.61	173.300
738.92	176.000
739.23	173.200
739.54	172.800
739.86	172.400
740.17	174.400
740.48	172.200
740.79	173.700
741.10	171.500
741.42	173.000
741.73	173.500
742.04	172.000
742.35	171.100
742.66	172.500
742.97	172.600
743.28	173.800
743.60	172.800
743.91	173.100
744.22	173.100
744.53	173.200
744.84	171.800
745.15	172.300
745.46	171.800
745.77	173.400
746.08	173.500
746.40	172.100
746.71	172.800
747.02	171.800
747.33	173.600
747.64	173.200
747.95	172.400
748.26	173.200
748.57	172.800
748.88	172.800
749.19	174.500
749.50	173.700
749.81	172.800
750.12	172.600
750.43	173.600
750.74	174.900
751.05	171.600
751.36	177.000
751.67	173.100
751.98	172.500
752.29	171.700
752.60	175.200
752.91	173.000
753.22	174.900
753.53	172.600
753.84	172.900
754.15	171.200
754.46	172.800
754.77	172.600
755.08	171.300
755.39	173.400
755.70	172.600
756.01	172.500
756.32	173.400
756.63	172.800
756.94	171.700
757.25	173.900
757.56	174.200
757.86	172.100
758.17	173.400
758.48	172.300
758.79	173.800
759.10	171.100
759.41	172.800
759.72	173.100
760.03	172.500
760.34	173.200
760.64	172.900
760.95	176.100
761.26	172.500
761.57	172.100
761.88	170.900
762.19	173.500
762.50	174.100
762.80	173.100
763.11	172.700
763.42	171.600
763.73	172.000
764.04	173.400
764.34	173.400
764.65	170.500
764.96	172.600
765.27	174.100
765.58	172.800
765.88	173.200
766.19	172.100
766.50	173.400
766.81	171.700
767.11	171.600
767.42	174.000
767.73	172.200
768.04	172.000
768.34	172.300
768.65	171.900
768.96	173.100
769.27	171.800
769.57	170.700
769.88	173.400
770.19	174.800
770.50	173.100
770.80	171.800
771.11	173.100
771.42	171.800
771.72	173.100
772.03	172.900
772.34	173.100
772.64	171.000
772.95	172.900
773.26	171.600
773.56	174.500
773.87	172.700
774.18	173.400
774.48	173.200
774.79	171.100
775.10	171.100
775.40	173.300
775.71	171.900
776.01	173.500
776.32	172.900
776.63	173.600
776.93	173.400
777.24	171.500
777.55	174.500
777.85	172.900
778.16	173.600
778.46	173.300
778.77	172.100
779.07	173.200
779.38	172.700
779.69	172.200
779.99	174.200
780.30	173.100
780.60	173.400
780.91	174.100
781.21	174.200
781.52	172.100
781.82	173.000
782.13	172.000
782.43	176.400
782.74	173.400
783.04	173.000
783.35	175.100
783.65	172.400
783.96	172.100
784.26	172.300
784.57	174.100
784.87	172.400
785.18	172.000
785.48	173.600
785.79	172.000
786.09	173.000
786.40	173.500
786.70	172.500
787.01	172.500
787.31	173.400
787.61	172.600
787.92	173.400
788.22	171.800
788.53	172.500
788.83	173.000
789.14	172.400
789.44	172.000
789.74	172.200
790.05	172.200
790.35	171.900
790.65	174.100
790.96	172.300
791.26	172.700
791.57	172.500
791.87	173.200
792.17	171.700
792.48	173.000
792.78	173.800
793.08	170.900
793.39	171.900
793.69	173.000
793.99	172.300
794.30	173.900
794.60	173.200
794.90	173.100
795.21	172.100
795.51	174.500
795.81	173.600
796.12	174.100
796.42	173.400
796.72	174.200
797.02	172.300
797.33	172.500
797.63	172.100
797.93	173.000
798.23	173.100
798.54	173.300
798.84	171.800
799.14	172.400
799.44	174.000
799.75	174.500
800.05	172.200
800.35	172.300
800.65	172.900
800.96	172.500
801.26	173.400
801.56	172.300
801.86	173.100
802.16	172.900
802.46	173.300
802.77	173.500
803.07	173.300
803.37	171.400
803.67	173.400
803.97	172.800
804.28	172.700
804.58	172.000
804.88	173.500
805.18	173.600
805.48	173.000
805.78	173.100
806.08	173.100
806.38	172.800
806.69	172.100
806.99	172.600
807.29	172.200
807.59	171.900
807.89	172.800
808.19	174.500
808.49	174.500
808.79	173.400
809.09	174.100
809.39	172.800
809.69	172.500
810.00	173.000
810.30	172.900
810.60	174.900
810.90	172.800
811.20	174.000
811.50	171.600
811.80	173.300
812.10	173.500
812.40	172.300
812.70	173.300
813.00	173.100
813.30	174.100
813.60	172.600
813.90	172.200
814.20	171.700
814.50	173.800
814.80	174.600
815.10	174.000
815.40	173.500
815.70	172.300
816.00	172.100
816.30	172.600
816.60	174.100
816.89	176.500
817.19	174.400
817.49	172.500
817.79	172.400
818.09	172.800
818.39	172.700
818.69	173.500
818.99	173.000
819.29	173.600
819.59	173.500
819.89	173.800
820.19	173.300
820.48	172.700
820.78	176.000
821.08	172.900
821.38	172.200
821.68	172.200
821.98	173.100
822.28	171.600
822.57	173.100
822.87	172.600
823.17	172.900
823.47	172.400
823.77	171.900
824.07	174.100
824.36	174.300
824.66	171.900
824.96	173.000
825.26	173.500
825.56	171.900
825.85	173.300
826.15	177.400
826.45	172.100
826.75	172.400
827.04	172.700
827.34	174.800
827.64	172.800
827.94	172.100
828.23	174.700
828.53	172.600
828.83	173.100
829.13	173.300
829.42	172.700
829.72	171.700
830.02	173.000
830.32	173.100
830.61	176.500
830.91	173.200
831.21	174.500
831.50	171.700
831.80	171.600
832.10	172.300
832.39	172.100
832.69	172.600
832.99	172.600
833.28	173.200
833.58	173.900
833.88	174.500
834.17	173.000
834.47	172.800
834.77	172.900
835.06	171.300
835.36	172.400
835.65	172.500
835.95	172.800
836.25	172.300
836.54	174.000
836.84	171.700
837.13	172.900
837.43	173.600
837.73	172.000
838.02	173.300
838.32	172.700
838.61	172.800
838.91	173.500
839.20	172.900
839.50	171.800
839.80	173.300
840.09	173.200
840.39	172.700
840.68	173.000
840.98	173.000
841.27	173.000
841.57	174.300
841.86	172.600
842.16	172.700
842.45	173.300
842.75	173.000
843.04	171.500
843.34	172.000
843.63	173.400
843.93	172.000
844.22	172.100
844.52	172.300
844.81	174.100
845.10	173.600
845.40	172.800
845.69	172.800
845.99	173.300
846.28	173.200
846.58	172.400
846.87	172.300
847.16	175.100
847.46	173.100
847.75	172.900
848.05	173.500
848.34	173.400
848.63	172.400
848.93	172.100
849.22	172.600
849.52	172.700
849.81	173.900
850.10	171.000
850.40	173.700
850.69	174.100
850.98	173.400
851.28	173.600
851.57	172.800
851.86	172.600
852.16	174.600
852.45	176.700
852.74	173.000
853.04	175.200
853.33	173.800
853.62	173.600
853.92	172.800
854.21	172.000
854.50	171.700
854.79	174.700
855.09	174.100
855.38	171.800
855.67	176.100
855.96	173.300
856.26	173.600
856.55	171.900
856.84	173.000
857.13	173.800
857.43	172.400
857.72	172.700
858.01	173.200
858.30	175.800
858.59	173.300
858.89	172.000
859.18	173.900
859.47	174.600
859.76	172.600
860.05	172.000
860.35	174.800
860.64	172.000
860.93	172.700
861.22	173.700
861.51	173.400
861.80	172.700
862.10	172.700
862.39	173.400
862.68	172.400
862.97	172.300
863.26	172.400
863.55	173.700
863.84	172.800
864.13	173.300
864.42	171.900
864.72	173.500
865.01	172.600
865.30	171.900
865.59	173.000
865.88	172.600
866.17	174.100
866.46	174.800
866.75	172.900
867.04	174.200
867.33	173.300
867.62	173.200
867.91	173.600
868.20	174.100
868.49	173.500
868.78	174.400
869.07	174.700
869.36	173.400
869.65	172.000
869.94	173.400
870.23	174.300
870.52	174.900
870.81	172.600
871.10	173.600
871.39	173.000
871.68	173.500
871.97	172.200
872.26	173.500
872.55	173.000
872.84	173.900
873.13	171.200
873.42	173.300
873.71	173.300
874.00	172.000
874.29	173.600
874.58	172.800
874.87	173.100
875.15	172.900
875.44	172.500
875.73	172.700
876.02	172.500
876.31	173.900
876.60	173.700
876.89	173.100
877.18	173.200
877.46	171.400
877.75	172.700
878.04	172.800
878.33	171.700
878.62	173.000
878.91	172.500
879.19	172.000
879.48	175.300
879.77	172.600
880.06	171.900
880.35	171.800
880.64	175.400
880.92	172.000
881.21	171.500
881.50	172.600
881.79	172.300
882.07	172.700
882.36	174.300
882.65	171.800
882.94	170.900
883.22	172.800
883.51	172.600
883.80	172.800
884.09	171.800
884.37	173.700
884.66	174.300
884.95	172.400
885.24	172.100
885.52	171.100
885.81	173.800
886.10	173.300
886.38	172.600
886.67	172.300
886.96	172.900
887.24	173.100
887.53	171.200
887.82	174.600
888.10	172.400
888.39	172.500
888.68	171.500
888.96	173.700
889.25	172.600
889.54	173.100
889.82	172.000
890.11	172.900
890.39	173.900
890.68	172.500
890.97	172.800
891.25	174.000
891.54	179.700
891.82	174.200
892.11	173.300
892.40	172.500
892.68	173.500
892.97	173.800
893.25	173.300
893.54	174.300
893.82	172.400
894.11	173.400
894.39	172.400
894.68	172.600
894.97	173.100
895.25	172.800
895.54	172.100
895.82	171.700
896.11	174.000
896.39	173.100
896.68	173.100
896.96	173.200
897.25	171.200
897.53	173.600
897.82	173.700
898.10	174.500
898.38	172.600
898.67	172.900
898.95	172.500
899.24	171.500
899.52	174.100
899.81	172.300
900.09	172.000
900.38	173.600
900.66	172.300
900.94	172.900
901.23	173.300
901.51	173.800
901.80	173.300
902.08	172.100
902.36	173.800
902.65	172.100
902.93	172.900
903.21	173.900
903.50	173.200
903.78	174.000
904.07	174.000
904.35	173.000
904.63	172.900
904.92	174.000
905.20	173.000
905.48	172.200
905.76	174.500
906.05	173.500
906.33	173.300
906.61	173.800
906.90	173.300
907.18	172.700
907.46	171.000
907.75	173.400
908.03	172.600
908.31	173.500
908.59	173.300
908.88	173.100
909.16	172.900
909.44	175.500
909.72	174.700
910.01	172.400
910.29	173.000
910.57	174.700
910.85	173.600
911.13	173.200
911.42	173.700
911.70	173.800
911.98	173.500
912.26	173.600
912.54	173.800
912.83	170.700
913.11	173.200
913.39	172.600
913.67	174.200
913.95	172.500
914.23	173.100
914.52	173.000
914.80	173.900
915.08	173.200
915.36	173.900
915.64	171.200
915.92	172.400
916.20	173.600
916.48	172.200
916.77	173.100
917.05	172.500
917.33	172.700
917.61	171.500
917.89	171.600
918.17	174.200
918.45	172.400
918.73	172.900
919.01	173.100
919.29	173.600
919.57	172.400
919.85	171.600
920.13	172.400
920.41	173.800
920.69	172.800
920.97	172.500
921.25	172.200
921.53	172.500
921.81	172.200
922.09	174.000
922.37	172.000
922.65	172.400
922.93	173.100
923.21	173.100
923.49	172.800
923.77	172.300
924.05	172.400
924.33	172.900
924.61	173.700
924.89	173.800
925.17	173.500
925.45	174.100
925.73	171.400
926.01	174.000
926.29	173.400
926.57	171.500
926.84	171.600
927.12	172.100
927.40	172.900
927.68	172.700
927.96	172.100
928.24	171.700
928.52	173.300
928.80	172.300
929.07	172.200
929.35	173.000
929.63	170.600
929.91	172.200
930.19	172.600
930.47	174.400
930.74	172.000
931.02	170.800
931.30	175.200
931.58	172.500
931.86	172.700
932.13	172.600
932.41	173.200
932.69	173.000
932.97	172.000
933.24	171.800
933.52	171.400
933.80	170.400
934.08	172.300
934.36	173.200
934.63	174.100
934.91	173.400
935.19	171.600
935.46	172.700
935.74	173.000
936.02	172.300
936.30	172.100
936.57	173.400
936.85	170.800
937.13	170.900
937.40	171.200
937.68	172.600
937.96	175.800
938.23	171.900
938.51	173.700
938.79	172.600
939.06	172.100
939.34	172.400
939.62	173.100
939.89	172.200
940.17	173.300
940.44	172.600
940.72	172.900
941.00	172.100
941.27	172.800
941.55	171.800
941.82	171.300
942.10	173.200
942.38	174.400
942.65	173.900
942.93	174.400
943.20	171.000
943.48	174.900
943.75	172.100
944.03	172.700
944.31	173.000
944.58	171.200
944.86	171.400
945.13	174.700
945.41	173.000
945.68	172.600
945.96	172.300
946.23	171.300
946.51	173.300
946.78	172.300
947.06	172.300
947.33	172.800
947.61	172.400
947.88	171.500
948.16	172.700
948.43	173.100
948.70	171.300
948.98	172.200
949.25	171.900
949.53	172.100
949.80	173.600
950.08	172.800
950.35	174.000
950.62	173.200
950.90	174.200
951.17	174.500
951.45	172.400
951.72	172.400
951.99	172.800
952.27	174.400
952.54	172.900
952.81	171.900
953.09	173.000
953.36	173.700
953.63	173.200
953.91	172.700
954.18	173.000
954.45	172.400
954.73	174.000
955.00	171.900
955.27	172.800
955.55	171.500
955.82	172.000
956.09	172.300
956.37	173.500
956.64	172.400
956.91	172.600
957.18	173.700
957.46	170.900
957.73	174.300
958.00	173.600
958.27	172.700
958.55	173.600
958.82	171.200
959.09	172.000
959.36	175.700
959.64	172.900
959.91	174.900
960.18	172.800
960.45	173.600
960.72	173.000
961.00	173.000
961.27	173.600
961.54	172.100
961.81	172.700
962.08	172.500
962.35	173.200
962.63	174.200
962.90	173.000
963.17	172.500
963.44	173.400
963.71	173.000
963.98	172.500
964.25	171.500
964.53	171.800
964.80	172.500
965.07	172.500
965.34	176.500
965.61	172.600
965.88	172.300
966.15	171.600
966.42	173.500
966.69	173.700
966.96	172.000
967.23	172.200
967.50	172.500
967.77	173.400
968.04	174.700
968.31	172.700
968.59	173.000
968.86	175.100
969.13	174.900
969.40	175.200
969.67	172.100
969.94	171.500
970.21	173.300
970.48	172.500
970.75	173.700
971.01	172.300
971.28	171.900
971.55	172.200
971.82	173.400
972.09	173.700
972.36	172.500
972.63	172.700
972.90	172.000
973.17	172.900
973.44	172.000
973.71	173.300
973.98	173.000
974.25	174.500
974.52	172.200
974.78	172.800
975.05	173.000
975.32	173.400
975.59	174.600
975.86	172.200
976.13	170.900
976.40	172.200
976.67	172.800
976.93	171.500
977.20	174.300
977.47	172.400
977.74	171.600
978.01	173.500
978.28	172.900
978.54	172.700
978.81	172.300
979.08	172.500
979.35	171.700
979.61	172.500
979.88	172.700
980.15	173.600
980.42	172.800
980.69	172.500
980.95	173.600
981.22	172.800
981.49	171.900
981.76	172.600
982.02	172.100
982.29	172.000
982.56	173.300
982.82	175.800
983.09	174.200
983.36	173.100
983.63	173.700
983.89	173.700
984.16	172.400
984.43	173.400
984.69	173.500
984.96	174.200
985.23	175.000
985.49	172.800
985.76	172.500
986.03	173.500
986.29	173.200
986.56	173.100
986.82	172.000
987.09	172.300
987.36	172.400
987.62	174.500
987.89	173.900
988.15	172.900
988.42	172.300
988.69	173.400
988.95	172.500
989.22	172.700
989.48	174.300
989.75	172.500
990.01	173.300
990.28	173.400
990.55	171.800
990.81	172.300
991.08	173.400
991.34	172.100
991.61	173.900
991.87	172.700
992.14	173.400
992.40	172.700
992.67	175.000
992.93	171.800
993.20	173.300
993.46	173.600
993.73	173.200
993.99	172.600
994.25	176.300
994.52	172.400
994.78	174.400
995.05	173.300
995.31	172.400
995.58	172.500
995.84	174.600
996.11	173.400
996.37	172.100
996.63	172.300
996.90	172.500
997.16	172.600
997.43	173.700
997.69	173.400
997.95	176.100
998.22	171.800
998.48	170.900
998.74	172.600
999.01	178.600
999.27	173.000
999.53	172.700
999.80	172.100
1000.06	173.100
1000.32	174.000
1000.59	171.900
1000.85	172.400
>>>>>End Spectral Data<<<<<
