OOIBase32 Version 2.0.6.5 Data File
++++++++++++++++++++++++++++++++++++
Date: 05-07-2014, 16:31:52
User: Valued Ocean Optics Customer
Spectrometer Serial Number: 
Spectrometer Channel: Master
Integration Time (msec): 100
Spectra Averaged: 10
Boxcar Smoothing: 0
Correct for Electrical Dark: Disabled
Time Normalized: Disabled
Dual-beam Reference: Disabled
Reference Channel: Master
Temperature: Not acquired
Spectrometer Type: S2000
ADC Type: USB2000
Number of Pixels in File: 2048
Graph Title: 
>>>>>Begin Spectral Data<<<<<
355.95	0.000
356.31	167.200
356.67	165.900
357.03	168.500
357.38	168.500
357.74	172.900
358.10	169.800
358.45	169.800
358.81	177.700
359.17	171.900
359.53	171.800
359.88	172.200
360.24	173.100
360.60	174.000
360.95	173.800
361.31	173.500
361.67	171.800
362.03	174.600
362.38	178.200
362.74	172.700
363.10	173.700
363.45	172.100
363.81	170.200
364.17	172.100
364.52	172.500
364.88	179.900
365.24	172.000
365.59	172.900
365.95	173.200
366.31	171.600
366.66	171.600
367.02	172.600
367.38	176.600
367.73	174.100
368.09	171.900
368.45	174.600
368.80	174.300
369.16	174.800
369.51	172.900
369.87	174.000
370.23	172.700
370.58	173.500
370.94	171.800
371.30	174.400
371.65	174.100
372.01	174.700
372.36	173.400
372.72	174.800
373.08	175.900
373.43	180.500
373.79	173.300
374.14	175.600
374.50	173.600
374.85	172.800
375.21	173.900
375.57	174.000
375.92	172.800
376.28	172.500
376.63	175.900
376.99	173.000
377.34	174.400
377.70	175.300
378.06	174.200
378.41	172.500
378.77	175.200
379.12	175.200
379.48	173.600
379.83	174.800
380.19	174.000
380.54	174.100
380.90	173.400
381.25	173.200
381.61	172.700
381.96	172.500
382.32	173.600
382.67	172.700
383.03	174.500
383.38	179.900
383.74	173.900
384.09	173.300
384.45	173.200
384.80	172.700
385.16	172.600
385.51	173.800
385.87	174.600
386.22	173.200
386.58	174.300
386.93	173.300
387.29	172.800
387.64	174.500
388.00	172.800
388.35	173.700
388.70	176.400
389.06	173.700
389.41	173.000
389.77	171.900
390.12	172.100
390.48	172.100
390.83	173.800
391.19	172.100
391.54	175.500
391.89	173.200
392.25	171.100
392.60	172.300
392.96	171.400
393.31	171.000
393.66	171.400
394.02	172.200
394.37	173.600
394.73	174.000
395.08	171.700
395.43	171.400
395.79	173.100
396.14	175.200
396.50	172.900
396.85	174.500
397.20	171.600
397.56	171.100
397.91	173.800
398.26	171.800
398.62	172.000
398.97	173.200
399.32	172.600
399.68	171.200
400.03	172.700
400.38	173.000
400.74	171.500
401.09	173.300
401.44	171.100
401.80	171.500
402.15	172.900
402.50	171.300
402.86	172.100
403.21	171.800
403.56	172.900
403.92	171.300
404.27	171.900
404.62	172.200
404.98	174.200
405.33	171.500
405.68	172.900
406.03	170.600
406.39	173.600
406.74	172.400
407.09	171.500
407.44	172.000
407.80	171.600
408.15	172.500
408.50	177.000
408.86	170.700
409.21	172.400
409.56	172.800
409.91	172.800
410.27	172.700
410.62	174.200
410.97	172.500
411.32	174.000
411.67	173.200
412.03	171.400
412.38	171.000
412.73	173.200
413.08	173.500
413.44	173.700
413.79	173.200
414.14	172.600
414.49	172.800
414.84	171.700
415.20	176.900
415.55	172.800
415.90	172.000
416.25	173.000
416.60	172.200
416.95	172.700
417.31	173.700
417.66	172.800
418.01	173.900
418.36	172.200
418.71	174.200
419.06	172.700
419.42	176.700
419.77	171.300
420.12	173.700
420.47	172.800
420.82	173.600
421.17	174.600
421.52	172.100
421.88	171.900
422.23	173.500
422.58	172.200
422.93	173.200
423.28	173.900
423.63	170.700
423.98	174.100
424.33	172.200
424.69	172.500
425.04	172.000
425.39	173.100
425.74	172.100
426.09	174.400
426.44	173.000
426.79	172.200
427.14	177.600
427.49	172.500
427.84	172.200
428.19	173.800
428.54	173.900
428.89	172.600
429.25	176.200
429.60	169.800
429.95	172.500
430.30	173.300
430.65	171.800
431.00	171.700
431.35	171.900
431.70	172.800
432.05	171.700
432.40	173.400
432.75	170.800
433.10	173.400
433.45	173.600
433.80	171.800
434.15	172.500
434.50	172.500
434.85	173.200
435.20	173.400
435.55	171.600
435.90	171.900
436.25	173.000
436.60	172.300
436.95	172.000
437.30	171.100
437.65	173.400
438.00	172.700
438.35	172.400
438.70	171.300
439.05	171.700
439.40	171.900
439.75	172.300
440.10	173.200
440.44	170.600
440.79	172.100
441.14	173.700
441.49	173.300
441.84	172.100
442.19	172.300
442.54	171.800
442.89	173.000
443.24	173.400
443.59	171.800
443.94	172.500
444.29	172.200
444.64	173.300
444.98	172.400
445.33	172.500
445.68	171.800
446.03	172.800
446.38	172.500
446.73	172.200
447.08	172.600
447.43	172.500
447.78	172.600
448.12	172.400
448.47	172.100
448.82	171.800
449.17	173.300
449.52	170.700
449.87	171.900
450.21	174.600
450.56	172.800
450.91	171.400
451.26	172.200
451.61	172.000
451.96	174.900
452.30	175.100
452.65	171.600
453.00	172.800
453.35	174.000
453.70	172.800
454.05	172.200
454.39	174.100
454.74	173.000
455.09	173.500
455.44	172.700
455.79	173.100
456.13	171.700
456.48	172.300
456.83	171.500
457.18	173.700
457.52	172.800
457.87	173.500
458.22	173.700
458.57	172.100
458.91	173.100
459.26	173.800
459.61	172.900
459.96	172.200
460.30	176.500
460.65	178.300
461.00	174.100
461.35	173.100
461.69	172.600
462.04	173.700
462.39	175.300
462.73	173.000
463.08	173.300
463.43	173.300
463.78	172.700
464.12	172.900
464.47	170.600
464.82	172.400
465.16	174.000
465.51	172.700
465.86	173.100
466.20	172.000
466.55	173.700
466.90	173.400
467.24	172.800
467.59	173.800
467.94	175.000
468.28	172.700
468.63	172.800
468.98	172.700
469.32	172.200
469.67	172.100
470.02	172.700
470.36	171.400
470.71	175.100
471.06	171.300
471.40	173.100
471.75	171.300
472.09	173.100
472.44	173.400
472.79	172.900
473.13	172.500
473.48	173.200
473.82	171.400
474.17	173.900
474.52	173.300
474.86	172.400
475.21	172.800
475.55	174.100
475.90	172.400
476.25	172.100
476.59	172.400
476.94	173.600
477.28	173.100
477.63	171.800
477.97	174.300
478.32	172.400
478.66	174.100
479.01	172.300
479.35	173.400
479.70	172.900
480.05	173.400
480.39	171.900
480.74	173.700
481.08	172.400
481.43	171.900
481.77	171.900
482.12	173.700
482.46	174.700
482.81	173.100
483.15	174.000
483.50	173.000
483.84	172.800
484.19	173.400
484.53	171.800
484.88	173.400
485.22	174.800
485.57	177.300
485.91	172.600
486.25	173.600
486.60	173.800
486.94	173.000
487.29	176.400
487.63	173.100
487.98	172.200
488.32	172.400
488.67	173.100
489.01	174.200
489.36	173.000
489.70	173.600
490.04	173.800
490.39	171.800
490.73	173.500
491.08	173.900
491.42	172.800
491.76	173.500
492.11	172.400
492.45	172.700
492.80	171.500
493.14	173.300
493.48	171.800
493.83	173.300
494.17	171.500
494.52	173.900
494.86	173.700
495.20	173.400
495.55	173.800
495.89	173.200
496.23	173.500
496.58	171.900
496.92	172.200
497.26	173.400
497.61	173.400
497.95	174.600
498.29	173.000
498.64	173.100
498.98	173.000
499.32	175.600
499.67	173.900
500.01	172.700
500.35	174.000
500.70	180.200
501.04	175.400
501.38	173.700
501.73	172.900
502.07	172.000
502.41	173.900
502.75	173.000
503.10	176.100
503.44	173.200
503.78	173.800
504.12	174.300
504.47	173.900
504.81	174.600
505.15	175.500
505.50	174.200
505.84	173.600
506.18	172.600
506.52	174.200
506.87	173.100
507.21	173.800
507.55	171.700
507.89	174.700
508.23	173.600
508.58	174.300
508.92	176.600
509.26	173.700
509.60	173.900
509.94	175.200
510.29	176.900
510.63	175.900
510.97	174.500
511.31	173.500
511.65	175.900
512.00	173.500
512.34	173.900
512.68	174.500
513.02	173.400
513.36	177.300
513.70	173.300
514.05	174.900
514.39	174.800
514.73	172.800
515.07	173.900
515.41	173.900
515.75	176.000
516.10	178.300
516.44	175.600
516.78	173.100
517.12	172.800
517.46	174.000
517.80	176.500
518.14	174.000
518.48	174.700
518.82	173.800
519.17	175.500
519.51	172.800
519.85	174.500
520.19	174.300
520.53	174.400
520.87	172.000
521.21	173.600
521.55	173.400
521.89	174.100
522.23	172.900
522.57	175.200
522.91	173.700
523.25	174.300
523.60	172.900
523.94	173.700
524.28	174.800
524.62	173.700
524.96	176.500
525.30	174.000
525.64	174.200
525.98	172.800
526.32	177.700
526.66	171.800
527.00	174.800
527.34	175.200
527.68	172.400
528.02	174.400
528.36	173.900
528.70	174.900
529.04	173.000
529.38	173.800
529.72	174.700
530.06	174.400
530.40	173.400
530.74	173.700
531.08	174.000
531.42	176.300
531.76	173.700
532.10	174.100
532.43	174.000
532.77	173.800
533.11	175.000
533.45	173.800
533.79	174.300
534.13	173.300
534.47	174.600
534.81	175.200
535.15	175.800
535.49	174.700
535.83	173.700
536.17	174.100
536.51	175.700
536.84	173.300
537.18	176.800
537.52	179.200
537.86	174.600
538.20	174.500
538.54	177.100
538.88	174.500
539.22	180.500
539.56	176.800
539.89	176.700
540.23	176.000
540.57	178.300
540.91	176.600
541.25	176.000
541.59	177.800
541.92	175.700
542.26	176.600
542.60	176.300
542.94	177.200
543.28	175.600
543.62	176.800
543.95	177.600
544.29	177.500
544.63	177.200
544.97	178.000
545.31	178.000
545.64	178.600
545.98	177.300
546.32	179.400
546.66	178.800
547.00	178.100
547.33	176.600
547.67	187.700
548.01	180.100
548.35	180.400
548.68	179.300
549.02	180.400
549.36	179.300
549.70	180.600
550.03	180.500
550.37	180.800
550.71	181.700
551.05	182.400
551.38	179.700
551.72	183.400
552.06	182.700
552.40	181.600
552.73	182.100
553.07	183.700
553.41	186.000
553.74	183.700
554.08	186.000
554.42	184.300
554.75	185.500
555.09	186.300
555.43	187.900
555.77	189.200
556.10	188.800
556.44	188.500
556.78	187.000
557.11	191.200
557.45	191.900
557.78	196.700
558.12	192.500
558.46	193.800
558.79	196.100
559.13	196.700
559.47	198.300
559.80	199.600
560.14	200.800
560.48	202.400
560.81	202.400
561.15	202.800
561.48	205.300
561.82	208.400
562.16	207.300
562.49	210.400
562.83	212.900
563.16	213.300
563.50	215.800
563.84	217.000
564.17	219.400
564.51	221.300
564.84	222.200
565.18	228.300
565.51	228.100
565.85	230.500
566.19	232.600
566.52	238.700
566.86	240.100
567.19	244.300
567.53	246.800
567.86	249.100
568.20	253.300
568.53	259.100
568.87	261.700
569.20	267.100
569.54	268.700
569.87	273.800
570.21	278.500
570.54	284.700
570.88	288.500
571.21	296.100
571.55	302.500
571.88	307.000
572.22	314.700
572.55	321.100
572.89	327.700
573.22	336.000
573.56	346.700
573.89	352.900
574.23	359.200
574.56	371.100
574.89	380.400
575.23	388.700
575.56	400.800
575.90	408.900
576.23	417.600
576.57	430.900
576.90	449.500
577.23	458.900
577.57	472.000
577.90	483.100
578.24	499.400
578.57	513.700
578.91	529.400
579.24	549.400
579.57	569.500
579.91	581.700
580.24	600.200
580.57	618.900
580.91	639.600
581.24	655.400
581.58	685.100
581.91	710.800
582.24	732.200
582.58	758.200
582.91	790.900
583.24	815.300
583.58	839.200
583.91	873.700
584.24	903.000
584.58	938.000
584.91	967.100
585.24	998.000
585.58	1041.800
585.91	1070.500
586.24	1120.400
586.58	1154.900
586.91	1192.400
587.24	1245.300
587.57	1288.700
587.91	1326.400
588.24	1373.000
588.57	1423.200
588.91	1469.100
589.24	1543.900
589.57	1592.600
589.90	1664.800
590.24	1718.900
590.57	1779.100
590.90	1848.800
591.23	1898.000
591.57	1975.900
591.90	2049.400
592.23	2131.900
592.56	2198.400
592.90	2267.800
593.23	2344.000
593.56	2415.200
593.89	2494.300
594.22	2565.200
594.56	2628.700
594.89	2710.200
595.22	2785.500
595.55	2833.900
595.88	2893.500
596.22	2939.400
596.55	2989.100
596.88	3024.900
597.21	3047.000
597.54	3061.700
597.87	3047.800
598.21	3048.000
598.54	3038.000
598.87	2992.700
599.20	2922.900
599.53	2854.100
599.86	2778.600
600.19	2705.500
600.53	2599.500
600.86	2502.100
601.19	2394.400
601.52	2289.500
601.85	2167.600
602.18	2074.300
602.51	1952.900
602.84	1849.100
603.17	1752.500
603.50	1646.600
603.84	1555.800
604.17	1463.100
604.50	1375.100
604.83	1291.300
605.16	1224.300
605.49	1148.400
605.82	1077.300
606.15	1018.500
606.48	966.600
606.81	915.000
607.14	865.600
607.47	817.400
607.80	780.500
608.13	739.400
608.46	699.000
608.79	664.200
609.12	633.000
609.45	600.900
609.78	578.400
610.11	549.800
610.44	525.200
610.77	499.500
611.10	477.000
611.43	459.300
611.76	441.500
612.09	422.100
612.42	412.300
612.75	391.000
613.08	378.700
613.41	360.100
613.74	347.500
614.07	340.000
614.40	327.600
614.73	316.500
615.06	307.900
615.39	298.700
615.72	290.800
616.05	283.600
616.38	275.200
616.71	273.800
617.04	263.000
617.37	262.200
617.69	254.500
618.02	249.400
618.35	246.700
618.68	241.000
619.01	240.800
619.34	234.200
619.67	230.500
620.00	228.500
620.33	228.700
620.65	220.700
620.98	221.200
621.31	216.200
621.64	214.800
621.97	211.700
622.30	213.900
622.63	209.400
622.95	208.100
623.28	205.600
623.61	203.100
623.94	200.500
624.27	200.500
624.60	198.000
624.92	197.900
625.25	195.200
625.58	193.500
625.91	193.400
626.24	193.200
626.56	192.900
626.89	190.600
627.22	189.200
627.55	188.400
627.87	186.200
628.20	187.500
628.53	186.100
628.86	185.500
629.19	183.100
629.51	183.700
629.84	185.900
630.17	181.900
630.50	182.900
630.82	181.200
631.15	181.200
631.48	179.300
631.80	182.200
632.13	179.300
632.46	185.800
632.79	180.500
633.11	180.800
633.44	178.000
633.77	179.000
634.09	179.700
634.42	181.200
634.75	177.800
635.08	177.000
635.40	177.400
635.73	177.800
636.06	176.900
636.38	177.700
636.71	176.600
637.04	177.500
637.36	178.900
637.69	176.300
638.01	177.000
638.34	177.700
638.67	176.000
638.99	176.500
639.32	175.600
639.65	176.600
639.97	175.400
640.30	178.400
640.62	175.800
640.95	176.000
641.28	177.400
641.60	174.700
641.93	176.400
642.25	176.700
642.58	174.500
642.91	176.200
643.23	176.700
643.56	175.200
643.88	174.100
644.21	174.200
644.53	179.800
644.86	174.600
645.18	173.800
645.51	174.300
645.84	173.600
646.16	174.700
646.49	174.600
646.81	175.200
647.14	172.900
647.46	175.100
647.79	174.600
648.11	175.100
648.44	175.000
648.76	177.900
649.09	176.700
649.41	174.600
649.74	174.600
650.06	175.400
650.39	174.000
650.71	173.900
651.04	174.800
651.36	174.300
651.69	173.200
652.01	174.100
652.33	174.300
652.66	174.400
652.98	172.500
653.31	174.100
653.63	173.600
653.96	172.700
654.28	173.600
654.60	175.100
654.93	187.700
655.25	174.100
655.58	173.900
655.90	175.700
656.22	175.100
656.55	174.700
656.87	174.000
657.20	174.400
657.52	174.300
657.84	172.100
658.17	174.800
658.49	175.800
658.82	174.700
659.14	172.900
659.46	173.200
659.79	173.400
660.11	173.700
660.43	173.700
660.76	173.700
661.08	174.000
661.40	174.300
661.73	172.900
662.05	173.700
662.37	173.000
662.70	173.000
663.02	174.600
663.34	173.400
663.66	174.700
663.99	174.000
664.31	173.700
664.63	172.600
664.96	173.500
665.28	174.800
665.60	175.200
665.92	173.700
666.25	173.500
666.57	176.600
666.89	173.500
667.21	173.600
667.54	174.000
667.86	173.600
668.18	172.200
668.50	174.100
668.83	174.000
669.15	173.400
669.47	175.100
669.79	173.600
670.11	174.600
670.44	175.700
670.76	172.400
671.08	172.900
671.40	173.700
671.72	173.400
672.05	175.100
672.37	173.500
672.69	174.600
673.01	173.400
673.33	172.200
673.65	173.000
673.98	175.300
674.30	177.800
674.62	173.800
674.94	173.900
675.26	174.600
675.58	173.000
675.90	173.100
676.22	172.800
676.55	174.200
676.87	173.700
677.19	174.300
677.51	172.800
677.83	173.900
678.15	174.700
678.47	176.000
678.79	173.200
679.11	172.400
679.43	174.800
679.76	173.700
680.08	173.700
680.40	174.500
680.72	172.600
681.04	173.300
681.36	174.700
681.68	174.800
682.00	177.000
682.32	173.100
682.64	175.600
682.96	176.500
683.28	173.500
683.60	173.000
683.92	173.000
684.24	173.600
684.56	178.100
684.88	173.700
685.20	174.400
685.52	173.400
685.84	173.500
686.16	173.900
686.48	173.100
686.80	172.700
687.12	175.400
687.44	176.100
687.76	173.900
688.08	173.900
688.40	172.500
688.72	174.800
689.04	172.200
689.36	173.900
689.68	173.800
689.99	174.200
690.31	173.800
690.63	174.000
690.95	174.100
691.27	173.500
691.59	172.800
691.91	171.400
692.23	173.200
692.55	172.600
692.87	173.700
693.18	173.300
693.50	172.400
693.82	172.700
694.14	174.500
694.46	172.900
694.78	174.900
695.10	174.500
695.41	172.800
695.73	173.400
696.05	174.900
696.37	174.000
696.69	175.400
697.01	175.000
697.32	174.100
697.64	174.400
697.96	174.000
698.28	173.400
698.60	172.400
698.92	176.000
699.23	172.400
699.55	174.900
699.87	177.400
700.19	174.100
700.50	173.100
700.82	173.500
701.14	172.800
701.46	171.900
701.78	174.100
702.09	172.900
702.41	174.800
702.73	175.700
703.04	174.000
703.36	172.500
703.68	172.600
704.00	171.700
704.31	175.100
704.63	170.900
704.95	173.300
705.27	172.600
705.58	174.200
705.90	172.400
706.22	173.500
706.53	173.100
706.85	173.000
707.17	173.800
707.48	172.500
707.80	172.400
708.12	174.400
708.43	174.900
708.75	173.100
709.07	173.400
709.38	173.500
709.70	178.900
710.02	171.900
710.33	172.800
710.65	172.700
710.96	173.400
711.28	173.900
711.60	172.900
711.91	174.200
712.23	173.900
712.54	170.500
712.86	173.700
713.18	173.100
713.49	172.200
713.81	172.900
714.12	175.900
714.44	173.300
714.76	173.700
715.07	174.100
715.39	173.700
715.70	173.700
716.02	173.800
716.33	173.500
716.65	173.400
716.96	173.900
717.28	172.900
717.59	173.800
717.91	172.300
718.22	172.900
718.54	173.200
718.86	173.500
719.17	175.000
719.49	172.100
719.80	173.300
720.11	172.700
720.43	174.000
720.74	173.100
721.06	173.200
721.37	174.300
721.69	172.800
722.00	174.800
722.32	172.900
722.63	173.900
722.95	173.700
723.26	173.300
723.58	173.400
723.89	173.800
724.20	174.900
724.52	172.900
724.83	172.000
725.15	173.500
725.46	177.500
725.77	172.900
726.09	173.800
726.40	171.700
726.72	172.100
727.03	173.100
727.34	173.900
727.66	173.300
727.97	176.800
728.29	174.400
728.60	173.700
728.91	173.000
729.23	173.900
729.54	174.700
729.85	173.100
730.17	173.400
730.48	172.500
730.79	175.600
731.11	173.800
731.42	173.100
731.73	173.100
732.05	171.900
732.36	173.300
732.67	175.500
732.98	173.500
733.30	174.000
733.61	175.100
733.92	173.900
734.24	174.300
734.55	173.300
734.86	174.100
735.17	176.400
735.49	173.500
735.80	172.600
736.11	173.500
736.42	174.500
736.74	174.100
737.05	173.300
737.36	172.000
737.67	172.400
737.98	173.700
738.30	173.100
738.61	173.500
738.92	175.900
739.23	173.600
739.54	171.800
739.86	173.800
740.17	173.200
740.48	173.000
740.79	174.100
741.10	174.100
741.42	172.800
741.73	174.700
742.04	174.700
742.35	173.600
742.66	176.100
742.97	172.300
743.28	174.700
743.60	173.100
743.91	172.100
744.22	174.200
744.53	174.800
744.84	173.800
745.15	172.300
745.46	174.300
745.77	172.000
746.08	173.800
746.40	174.800
746.71	173.500
747.02	173.300
747.33	172.400
747.64	172.500
747.95	173.200
748.26	174.900
748.57	173.100
748.88	174.000
749.19	173.700
749.50	174.500
749.81	174.100
750.12	174.600
750.43	172.600
750.74	174.500
751.05	173.700
751.36	182.200
751.67	173.000
751.98	173.100
752.29	171.400
752.60	175.100
752.91	174.500
753.22	176.100
753.53	172.400
753.84	174.800
754.15	174.900
754.46	173.800
754.77	173.900
755.08	174.000
755.39	173.100
755.70	175.500
756.01	173.000
756.32	175.400
756.63	172.100
756.94	172.800
757.25	173.000
757.56	173.500
757.86	173.800
758.17	174.800
758.48	172.400
758.79	173.600
759.10	172.400
759.41	173.400
759.72	172.800
760.03	174.000
760.34	172.200
760.64	173.900
760.95	179.700
761.26	173.000
761.57	170.900
761.88	172.100
762.19	173.900
762.50	174.400
762.80	174.300
763.11	173.300
763.42	173.000
763.73	173.800
764.04	174.700
764.34	172.000
764.65	172.900
764.96	172.400
765.27	173.500
765.58	173.400
765.88	173.300
766.19	172.900
766.50	174.100
766.81	173.000
767.11	172.500
767.42	173.700
767.73	174.700
768.04	173.600
768.34	175.400
768.65	172.700
768.96	172.300
769.27	173.000
769.57	173.100
769.88	174.100
770.19	175.400
770.50	175.300
770.80	175.100
771.11	173.500
771.42	175.300
771.72	175.300
772.03	174.100
772.34	172.200
772.64	174.500
772.95	173.600
773.26	173.300
773.56	176.500
773.87	175.100
774.18	173.400
774.48	173.900
774.79	174.300
775.10	173.400
775.40	173.500
775.71	172.900
776.01	172.500
776.32	172.800
776.63	172.300
776.93	174.100
777.24	173.700
777.55	177.200
777.85	173.500
778.16	176.000
778.46	175.700
778.77	173.200
779.07	173.700
779.38	173.100
779.69	173.800
779.99	174.600
780.30	172.700
780.60	174.400
780.91	174.200
781.21	174.900
781.52	174.600
781.82	171.900
782.13	174.000
782.43	178.700
782.74	175.200
783.04	171.800
783.35	172.300
783.65	172.700
783.96	173.400
784.26	172.800
784.57	174.500
784.87	173.200
785.18	173.200
785.48	172.700
785.79	172.200
786.09	172.100
786.40	174.700
786.70	172.400
787.01	172.800
787.31	174.100
787.61	173.100
787.92	171.800
788.22	172.100
788.53	172.800
788.83	173.000
789.14	172.800
789.44	173.500
789.74	173.100
790.05	172.100
790.35	173.700
790.65	172.300
790.96	173.000
791.26	175.100
791.57	172.800
791.87	172.100
792.17	172.700
792.48	172.700
792.78	173.900
793.08	172.000
793.39	172.000
793.69	171.800
793.99	174.700
794.30	172.200
794.60	173.200
794.90	172.100
795.21	172.600
795.51	173.700
795.81	175.800
796.12	172.900
796.42	174.600
796.72	176.900
797.02	172.600
797.33	172.200
797.63	173.600
797.93	172.500
798.23	171.900
798.54	174.600
798.84	172.000
799.14	173.100
799.44	174.000
799.75	173.000
800.05	170.900
800.35	172.800
800.65	174.300
800.96	174.000
801.26	175.800
801.56	174.600
801.86	174.200
802.16	173.700
802.46	174.900
802.77	173.800
803.07	173.400
803.37	174.600
803.67	175.200
803.97	173.100
804.28	174.000
804.58	172.300
804.88	174.000
805.18	172.800
805.48	174.400
805.78	174.200
806.08	171.600
806.38	173.200
806.69	174.300
806.99	174.300
807.29	174.100
807.59	174.600
807.89	174.100
808.19	174.800
808.49	173.100
808.79	173.500
809.09	172.500
809.39	172.600
809.69	172.100
810.00	173.100
810.30	175.500
810.60	178.700
810.90	175.900
811.20	176.100
811.50	173.200
811.80	172.000
812.10	173.600
812.40	173.500
812.70	173.700
813.00	174.700
813.30	174.300
813.60	172.800
813.90	173.200
814.20	173.700
814.50	174.700
814.80	174.400
815.10	173.200
815.40	173.000
815.70	173.400
816.00	173.300
816.30	173.400
816.60	172.100
816.89	179.500
817.19	176.700
817.49	173.400
817.79	173.400
818.09	175.600
818.39	174.900
818.69	172.900
818.99	174.000
819.29	173.300
819.59	173.800
819.89	174.400
820.19	174.200
820.48	173.400
820.78	177.800
821.08	174.100
821.38	172.600
821.68	172.100
821.98	174.900
822.28	172.700
822.57	172.500
822.87	171.900
823.17	173.200
823.47	172.400
823.77	174.400
824.07	173.000
824.36	173.200
824.66	173.900
824.96	172.600
825.26	175.400
825.56	172.500
825.85	173.100
826.15	182.100
826.45	171.900
826.75	173.300
827.04	172.900
827.34	179.600
827.64	172.200
827.94	172.200
828.23	173.500
828.53	173.500
828.83	173.300
829.13	172.900
829.42	174.100
829.72	172.800
830.02	173.300
830.32	173.300
830.61	184.300
830.91	172.800
831.21	174.700
831.50	172.600
831.80	172.200
832.10	172.000
832.39	171.800
832.69	173.600
832.99	172.200
833.28	172.600
833.58	173.100
833.88	177.000
834.17	172.400
834.47	172.800
834.77	172.200
835.06	174.200
835.36	172.700
835.65	171.900
835.95	173.500
836.25	172.200
836.54	173.200
836.84	172.400
837.13	174.300
837.43	174.300
837.73	173.400
838.02	173.000
838.32	173.100
838.61	175.700
838.91	173.200
839.20	173.000
839.50	174.600
839.80	174.300
840.09	174.400
840.39	173.300
840.68	172.100
840.98	173.400
841.27	173.100
841.57	176.800
841.86	172.100
842.16	173.400
842.45	174.600
842.75	174.300
843.04	174.100
843.34	173.000
843.63	174.400
843.93	171.800
844.22	172.000
844.52	174.800
844.81	173.300
845.10	172.200
845.40	173.900
845.69	173.300
845.99	175.600
846.28	173.800
846.58	172.900
846.87	172.700
847.16	180.000
847.46	176.000
847.75	173.200
848.05	172.700
848.34	172.200
848.63	172.700
848.93	171.200
849.22	175.300
849.52	172.000
849.81	173.900
850.10	173.200
850.40	173.400
850.69	174.100
850.98	175.400
851.28	172.100
851.57	172.300
851.86	171.800
852.16	178.300
852.45	180.400
852.74	174.300
853.04	176.800
853.33	178.100
853.62	172.800
853.92	174.300
854.21	173.700
854.50	173.900
854.79	173.600
855.09	173.100
855.38	173.300
855.67	175.500
855.96	174.000
856.26	175.900
856.55	174.400
856.84	174.500
857.13	172.300
857.43	171.800
857.72	174.400
858.01	172.100
858.30	179.700
858.59	173.000
858.89	171.200
859.18	171.900
859.47	175.000
859.76	173.600
860.05	172.000
860.35	172.800
860.64	172.500
860.93	172.100
861.22	174.500
861.51	173.400
861.80	172.700
862.10	174.000
862.39	171.500
862.68	173.300
862.97	173.400
863.26	172.500
863.55	174.000
863.84	172.400
864.13	176.600
864.42	172.700
864.72	174.200
865.01	174.600
865.30	173.200
865.59	173.500
865.88	174.600
866.17	174.900
866.46	179.600
866.75	174.400
867.04	174.200
867.33	174.300
867.62	171.800
867.91	174.600
868.20	173.600
868.49	171.500
868.78	177.100
869.07	175.300
869.36	173.100
869.65	174.100
869.94	173.100
870.23	174.900
870.52	174.200
870.81	175.900
871.10	172.600
871.39	171.700
871.68	174.200
871.97	173.700
872.26	172.500
872.55	173.200
872.84	173.300
873.13	174.900
873.42	173.000
873.71	174.700
874.00	172.500
874.29	174.400
874.58	173.200
874.87	174.700
875.15	171.400
875.44	173.700
875.73	174.400
876.02	172.100
876.31	174.000
876.60	177.000
876.89	174.100
877.18	173.900
877.46	172.200
877.75	172.500
878.04	173.700
878.33	172.900
878.62	175.000
878.91	172.300
879.19	173.400
879.48	177.100
879.77	172.000
880.06	173.400
880.35	174.200
880.64	173.100
880.92	171.900
881.21	172.900
881.50	172.100
881.79	172.500
882.07	172.400
882.36	173.200
882.65	173.000
882.94	173.600
883.22	173.200
883.51	173.500
883.80	173.000
884.09	174.200
884.37	173.400
884.66	177.500
884.95	173.400
885.24	172.000
885.52	172.300
885.81	174.500
886.10	171.900
886.38	175.100
886.67	173.400
886.96	174.000
887.24	174.000
887.53	172.400
887.82	177.100
888.10	173.500
888.39	174.300
888.68	173.100
888.96	172.400
889.25	173.000
889.54	171.700
889.82	173.600
890.11	173.000
890.39	173.500
890.68	174.100
890.97	173.000
891.25	173.000
891.54	175.100
891.82	173.600
892.11	173.200
892.40	171.700
892.68	173.500
892.97	173.600
893.25	174.500
893.54	174.000
893.82	173.400
894.11	176.400
894.39	174.400
894.68	172.100
894.97	173.600
895.25	173.900
895.54	173.500
895.82	173.700
896.11	172.600
896.39	173.500
896.68	172.400
896.96	173.600
897.25	172.500
897.53	175.900
897.82	172.900
898.10	173.400
898.38	173.400
898.67	173.200
898.95	173.400
899.24	172.900
899.52	172.500
899.81	172.900
900.09	173.800
900.38	173.300
900.66	173.200
900.94	175.300
901.23	174.600
901.51	173.600
901.80	174.900
902.08	174.500
902.36	174.600
902.65	173.700
902.93	174.500
903.21	175.300
903.50	175.600
903.78	175.700
904.07	173.600
904.35	175.200
904.63	173.800
904.92	175.500
905.20	173.700
905.48	175.100
905.76	175.800
906.05	175.800
906.33	176.400
906.61	174.500
906.90	175.900
907.18	175.800
907.46	174.800
907.75	174.500
908.03	174.100
908.31	175.400
908.59	173.900
908.88	173.200
909.16	173.000
909.44	180.500
909.72	177.300
910.01	173.300
910.29	175.200
910.57	174.200
910.85	173.400
911.13	175.600
911.42	174.900
911.70	174.100
911.98	173.900
912.26	175.300
912.54	174.800
912.83	174.300
913.11	175.800
913.39	175.500
913.67	173.000
913.95	173.600
914.23	175.400
914.52	176.100
914.80	174.700
915.08	175.200
915.36	174.600
915.64	174.400
915.92	173.800
916.20	173.800
916.48	172.000
916.77	173.600
917.05	174.900
917.33	174.800
917.61	174.000
917.89	172.700
918.17	175.300
918.45	173.000
918.73	174.700
919.01	173.300
919.29	174.200
919.57	175.000
919.85	172.700
920.13	175.400
920.41	172.700
920.69	174.200
920.97	173.800
921.25	170.800
921.53	174.300
921.81	173.000
922.09	174.600
922.37	173.300
922.65	173.000
922.93	170.900
923.21	172.300
923.49	174.700
923.77	173.200
924.05	172.700
924.33	173.600
924.61	174.800
924.89	172.900
925.17	172.200
925.45	173.000
925.73	172.900
926.01	174.500
926.29	173.900
926.57	173.100
926.84	173.000
927.12	172.200
927.40	171.000
927.68	173.500
927.96	171.200
928.24	172.700
928.52	171.200
928.80	174.000
929.07	171.800
929.35	172.400
929.63	173.100
929.91	172.800
930.19	173.600
930.47	175.800
930.74	173.100
931.02	173.200
931.30	172.900
931.58	172.900
931.86	172.900
932.13	173.900
932.41	172.400
932.69	173.900
932.97	172.300
933.24	172.200
933.52	173.400
933.80	172.600
934.08	172.200
934.36	174.100
934.63	177.400
934.91	175.100
935.19	173.000
935.46	173.000
935.74	174.500
936.02	172.900
936.30	173.600
936.57	174.300
936.85	173.600
937.13	173.200
937.40	172.600
937.68	174.200
937.96	175.800
938.23	174.000
938.51	172.300
938.79	174.500
939.06	174.900
939.34	172.800
939.62	175.000
939.89	171.400
940.17	172.700
940.44	172.900
940.72	172.100
941.00	174.500
941.27	174.700
941.55	174.000
941.82	172.400
942.10	174.500
942.38	172.800
942.65	173.000
942.93	174.500
943.20	172.400
943.48	175.100
943.75	172.400
944.03	174.000
944.31	173.200
944.58	174.000
944.86	174.500
945.13	173.100
945.41	174.700
945.68	174.700
945.96	173.800
946.23	173.300
946.51	172.700
946.78	174.000
947.06	172.700
947.33	173.900
947.61	173.900
947.88	173.000
948.16	172.800
948.43	172.900
948.70	173.400
948.98	173.100
949.25	173.000
949.53	173.400
949.80	173.300
950.08	174.700
950.35	173.000
950.62	175.300
950.90	175.600
951.17	175.000
951.45	174.000
951.72	172.400
951.99	172.800
952.27	178.300
952.54	172.400
952.81	174.300
953.09	173.700
953.36	173.400
953.63	173.800
953.91	174.400
954.18	172.600
954.45	172.100
954.73	173.100
955.00	173.300
955.27	171.700
955.55	173.300
955.82	172.300
956.09	172.900
956.37	178.000
956.64	173.400
956.91	172.900
957.18	173.000
957.46	173.800
957.73	172.200
958.00	172.400
958.27	173.700
958.55	173.100
958.82	172.600
959.09	172.700
959.36	178.400
959.64	171.600
959.91	175.600
960.18	172.500
960.45	173.400
960.72	172.300
961.00	173.300
961.27	175.000
961.54	170.800
961.81	174.700
962.08	173.000
962.35	171.700
962.63	172.800
962.90	172.500
963.17	171.800
963.44	173.800
963.71	173.100
963.98	173.400
964.25	172.700
964.53	173.700
964.80	172.300
965.07	173.600
965.34	181.000
965.61	172.900
965.88	172.600
966.15	172.300
966.42	174.200
966.69	173.000
966.96	171.900
967.23	172.800
967.50	173.100
967.77	174.500
968.04	175.900
968.31	173.100
968.59	174.100
968.86	175.500
969.13	172.800
969.40	177.000
969.67	173.100
969.94	175.000
970.21	172.500
970.48	172.900
970.75	176.300
971.01	173.400
971.28	172.900
971.55	172.700
971.82	173.500
972.09	173.200
972.36	173.100
972.63	175.900
972.90	174.000
973.17	174.200
973.44	173.200
973.71	173.800
973.98	173.500
974.25	175.200
974.52	172.200
974.78	172.600
975.05	173.600
975.32	173.100
975.59	176.900
975.86	174.900
976.13	173.500
976.40	173.900
976.67	175.200
976.93	172.400
977.20	173.500
977.47	173.500
977.74	172.200
978.01	173.500
978.28	172.700
978.54	173.300
978.81	172.800
979.08	173.200
979.35	172.500
979.61	174.800
979.88	172.700
980.15	173.200
980.42	172.500
980.69	172.400
980.95	174.600
981.22	171.800
981.49	173.500
981.76	173.600
982.02	173.500
982.29	173.000
982.56	172.900
982.82	176.400
983.09	172.100
983.36	173.000
983.63	174.800
983.89	172.800
984.16	173.900
984.43	173.600
984.69	172.200
984.96	173.100
985.23	174.800
985.49	173.500
985.76	172.800
986.03	172.800
986.29	175.400
986.56	173.200
986.82	173.600
987.09	172.700
987.36	171.600
987.62	173.100
987.89	174.500
988.15	172.400
988.42	173.800
988.69	172.700
988.95	172.600
989.22	173.300
989.48	172.000
989.75	174.700
990.01	173.200
990.28	172.300
990.55	172.700
990.81	173.200
991.08	172.100
991.34	173.100
991.61	172.200
991.87	174.200
992.14	171.500
992.40	172.400
992.67	177.200
992.93	172.000
993.20	171.400
993.46	175.000
993.73	173.900
993.99	172.700
994.25	178.900
994.52	171.400
994.78	177.400
995.05	173.500
995.31	171.700
995.58	173.100
995.84	173.500
996.11	172.700
996.37	173.600
996.63	173.400
996.90	171.600
997.16	173.900
997.43	174.900
997.69	172.600
997.95	179.100
998.22	173.200
998.48	172.800
998.74	172.200
999.01	185.400
999.27	174.400
999.53	172.200
999.80	171.700
1000.06	173.600
1000.32	172.300
1000.59	173.200
1000.85	172.100
>>>>>End Spectral Data<<<<<
